Folder: data-mining/concrete compressive strength

File: train.csv
Id,Cement (component 1)(kg in a m^3 mixture),Blast Furnace Slag (component 2)(kg in a m^3 mixture),Fly Ash (component 3)(kg in a m^3 mixture),Water  (component 4)(kg in a m^3 mixture),Superplasticizer (component 5)(kg in a m^3 mixture),Coarse Aggregate  (component 6)(kg in a m^3 mixture),Fine Aggregate (component 7)(kg in a m^3 mixture),Age (day),"Concrete compressive strength(MPa, megapascals)"
1,349,0,0,192,0,1056,809,7,9.01
5,290.2,193.5,0,185.7,0,998.2,704.3,7,21.86
9,272.8,181.9,0,185.7,0,1012.4,714.3,7,19.77
13,303.6,139.9,0,213.5,6.2,895.5,722.5,28,33.42
17,273,105,82,210,9,904,680,28,37.17
21,153.6,144.2,112.3,220.1,10.1,923.2,657.9,28,16.5
25,133,200,0,192,0,927.4,839.2,7,13.66
29,380,0,0,228,0,932,670,90,52.91
33,380,95,0,228,0,932,594,28,36.45
37,469,117.2,0,137.8,32.2,852.1,840.5,3,40.2
41,332.5,142.5,0,228,0,932,594,28,33.02
45,310,0,0,192,0,1012,830,28,27.83
49,520,0,0,175,5.2,870,805,28,51.02
53,310,0,0,192,0,970,850,28,27.92
57,222.4,0,96.7,189.3,4.5,967.1,870.3,28,24.89
61,260.9,100.5,78.3,200.6,8.6,864.5,761.5,28,32.4
65,210.7,316.1,0,185.7,0,977,689.3,28,37.81
69,157,236,0,192,0,935.4,781.2,90,43.38
73,362.6,189,0,164.9,11.6,944.7,755.8,28,71.3
77,181.9,272.8,0,185.7,0,1012.4,714.3,28,27.94
81,427.5,47.5,0,228,0,932,594,7,35.08
85,159,149,116,175,15,953,720,28,27.68
89,313,0,0,178,8,1000,822,28,25.1
93,198.6,132.4,0,192,0,978.4,825.5,180,41.72
97,331,0,0,192,0,1025,821,120,39.38
101,218.9,0,124.1,158.5,11.3,1078.7,794.9,3,15.34
105,500,0,0,200,0,1125,613,270,55.16
109,237.5,237.5,0,228,0,932,594,90,33.12
113,212,0,124.8,159,7.8,1085.4,799.5,28,38.5
117,231.8,0,121.6,174,6.7,1056.4,778.5,28,33.73
121,255,0,0,192,0,889.8,945,28,18.75
125,158,0,195,220,11,898,713,28,8.54
129,475,0,0,228,0,932,594,180,42.62
133,376,0,0,214.6,0,1003.5,762.4,14,25.62
137,380,0,0,228,0,932,670,180,53.1
141,362.6,189,0,164.9,11.6,944.7,755.8,56,77.3
145,300,0,0,184,0,1075,795,28,26.85
149,194.7,0,100.5,165.6,7.5,1006.4,905.9,56,33.96
153,475,0,0,228,0,932,594,270,42.13
157,166.8,250.2,0,203.5,0,975.6,692.6,3,6.9
161,356,119,0,160,9,1061,657,28,59
165,297.2,0,117.5,174.8,9.5,1022.8,753.5,3,21.91
169,314,0,113,170,10,925,783,28,38.46
173,388.6,97.1,0,157.9,12.1,852.1,925.7,91,57.6
177,376,0,0,214.6,0,1003.5,762.4,28,31.97
181,446,24,79,162,11.6,967,712,56,56.14
185,277,117,91,191,7,946,666,28,43.57
189,153,102,0,192,0,888,943.1,28,17.96
193,153.1,145,113,178.5,8,1001.9,688.7,28,25.56
197,312.7,0,0,178.1,8,999.7,822.2,28,25.1
201,250,0,95.7,187.4,5.5,956.9,861.2,14,24.92
205,332.5,142.5,0,228,0,932,594,180,39.78
209,122.6,183.9,0,203.5,0,958.2,800.1,28,24.29
213,167.4,129.9,128.6,175.5,7.8,1006.3,746.6,28,41.2
217,238,0,0,186,0,1119,789,7,12.05
221,230,0,118.3,195.5,4.6,1029.4,758.6,14,20.08
225,165,0,150,182,12,1023,729,28,18.03
229,172.4,13.6,172.4,156.8,4.1,1006.3,856.4,100,37.68
233,380,95,0,228,0,932,594,270,41.15
237,387,20,94,157,11.6,938,845,7,41.67
241,475,118.8,0,181.1,8.9,852.1,781.5,56,72.3
245,155,0,143,193,9,1047,697,28,12.46
249,186.2,124.1,0,185.7,0,1083.4,764.3,28,17.6
253,158.8,238.2,0,185.7,0,1040.6,734.3,7,9.62
257,192,288,0,192,0,929.8,716.1,7,21.48
261,312.9,160.5,0,177.6,9.6,916.6,759.5,28,52.45
265,500,0,0,200,0,1125,613,180,51.04
269,425,106.3,0,153.5,16.5,852.1,887.1,56,64.3
273,218.9,0,124.1,158.5,11.3,1078.7,794.9,28,30.22
277,255,0,0,192,0,889.8,945,90,21.86
281,540,0,0,173,0,1125,613,90,69.66
285,385,0,0,186,0,966,763,7,23.22
289,295.7,0,95.6,171.5,8.9,955.1,859.2,28,39.94
293,252.5,0,0,185.7,0,1111.6,784.3,7,11.48
297,469,117.2,0,137.8,32.2,852.1,840.5,91,70.7
301,323.7,282.8,0,183.8,10.3,942.7,659.9,3,28.3
305,164.2,0,200.1,181.2,12.6,849.3,846,28,15.09
309,277,0,0,191,0,968,856,14,21.26
313,334,17.6,158,189,15.3,967,633,28,44.33
317,425,106.3,0,151.4,18.6,936,803.7,56,64.9
321,153,145,113,178,8,1002,689,28,25.56
325,149.5,236,0,175.8,12.6,846.8,892.7,28,32.96
329,379.5,151.2,0,153.9,15.9,1134.3,605,28,52.2
333,154.8,0,142.8,193.3,9.1,877.2,867.7,28,9.74
337,159.8,250,0,168.4,12.2,1049.3,688.2,28,39.46
341,393,0,0,192,0,940,758,3,19.11
345,212,0,124.8,159,7.8,1085.4,799.5,14,31.35
349,230,0,118.3,195.5,4.6,1029.4,758.6,28,24.48
353,265,111,86,195,6,833,790,28,41.54
357,331,0,0,192,0,978,825,360,41.24
361,540,0,0,173,0,1125,613,3,41.64
365,153,145,113,178,8,867,824,28,26.23
369,212,0,124.8,159,7.8,1085.4,799.5,56,45.08
373,339,0,0,197,0,968,781,365,38.89
377,229.7,0,118.2,195.2,6.1,1028.1,757.6,56,31.35
381,251.8,0,99.9,146.1,12.4,1006,899.8,100,45.37
385,277.2,97.8,24.5,160.7,11.2,1061.7,782.5,3,30.45
389,213.7,0,174.7,154.8,10.2,1053.5,776.4,100,50.08
393,379.5,151.2,0,153.9,15.9,1134.3,605,91,56.5
397,290.4,0,96.2,168.1,9.4,961.2,865,100,48.97
401,251.8,0,99.9,146.1,12.4,1006,899.8,3,21.02
405,165,0,143.6,163.8,0,1005.6,900.9,3,14.4
409,250,0,95.7,191.8,5.3,948.9,857.2,3,8.49
413,397,0,0,186,0,1040,734,28,36.94
417,202,11,141,206,1.7,942,801,56,23.25
421,298,0,107,164,13,953,784,28,35.86
425,213.7,98.1,24.5,181.7,6.9,1065.8,785.4,28,45.71
429,194.7,0,100.5,170.2,7.5,998,901.8,100,44.28
433,165,0,143.6,163.8,0,1005.6,900.9,56,36.56
437,218.9,0,124.1,158.5,11.3,1078.7,794.9,100,46.23
441,287.3,120.5,93.9,187.6,9.2,904.4,695.9,28,43.8
445,382,0,0,186,0,1111,784,7,11.47
449,425,106.3,0,153.5,16.5,852.1,887.1,56,64.3
453,251.4,0,118.3,188.5,5.8,1028.4,757.7,100,43.58
457,296,0,106.7,221.4,10.5,819.2,778.4,28,31.42
461,362.6,189,0,164.9,11.6,944.7,755.8,28,71.3
465,531.3,0,0,141.8,28.2,852.1,893.7,56,58.8
469,362.6,189,0,164.9,11.6,944.7,755.8,56,77.3
473,480,0,0,192,0,936,721,90,54.28
477,251.4,0,118.3,188.5,5.8,1028.4,757.7,14,29.93
481,475,0,59,142,1.9,1098,641,28,57.23
485,190,190,0,228,0,932,670,180,46.93
489,342,38,0,228,0,932,670,90,50.46
493,155.6,243.5,0,180.3,10.7,1022,697.7,28,37.36
497,528,0,0,185,6.9,920,720,28,56.83
501,236,0,0,194,0,968,885,14,12.84
505,427.5,47.5,0,228,0,932,594,270,43.01
509,277,0,0,191,0,968,856,180,32.33
513,250,0,95.7,191.8,5.3,948.9,857.2,100,41.16
517,144.8,0,133.6,180.8,11.1,979.5,811.5,28,13.2
521,272.8,105.1,81.8,209.7,9,904,679.7,28,37.17
525,304,76,0,228,0,932,670,28,47.81
529,168.9,42.2,124.3,158.3,10.8,1080.8,796.2,3,7.4
533,349,0,0,192,0,1047,806,7,18.13
537,155,183,0,193,9,1047,697,28,18.28
541,349,0,0,192,0,1056,809,3,15.87
545,330.5,169.6,0,194.9,8.1,811,802.3,28,56.62
549,102,153,0,192,0,887,942,7,7.68
553,350,0,0,186,0,1050,770,7,20.28
557,200,0,0,180,0,1125,845,7,7.84
561,310,142.8,0,167.9,10,914.3,804,28,45.3
565,290.4,0,96.2,168.1,9.4,961.2,865,56,45.08
569,254,0,0,198,0,968,863,365,29.79
573,277.1,0,97.4,160.6,11.8,973.9,875.6,56,51.04
577,349,0,0,192,0,1056,809,90,40.66
581,356,0,142,193,11,801,778,28,40.87
585,166.8,250.2,0,203.5,0,975.6,692.6,7,15.75
589,277,0,0,191,0,968,856,3,11.36
593,387,20,94,157,13.9,938,845,28,46.68
597,387,20,94,157,11.6,938,845,3,34.77
601,295.7,0,95.6,171.5,8.9,955.1,859.2,3,22.95
605,220.8,147.2,0,185.7,0,1055,744.3,7,13.09
609,148,175,0,171,2,1000,828,28,26.92
613,146,173,0,182,3,986,817,28,23.74
617,212,0,124.8,159,7.8,1085.4,799.5,3,19.52
621,238.2,158.8,0,185.7,0,1040.6,734.3,28,26.91
625,336,0,0,182,3,986,817,28,44.86
629,321,164,0,190,5,870,774,28,57.21
633,525,0,0,189,0,1125,613,270,67.11
637,401.8,94.7,0,147.4,11.4,946.8,852.1,7,54.1
641,397,0,0,185.7,0,1040.6,734.3,7,25.45
645,190.7,0,125.4,162.1,7.8,1090,804,28,26.4
649,295,0,0,185,0,1069,769,7,14.8
653,275.1,0,121.4,159.5,9.9,1053.6,777.5,3,23.8
657,139.6,209.4,0,192,0,1047,806.9,90,39.36
661,251.4,0,118.3,188.5,5.8,1028.4,757.7,28,29.65
665,152.7,144.7,0,178.1,8,999.7,822.2,28,19.01
669,212.5,0,100.4,159.3,8.7,1007.8,903.6,14,26.31
673,261.9,110.5,86.1,195.4,5,895.2,732.6,28,33.72
677,225,0,0,181,0,1113,833,7,11.17
681,250,0,0,182,0,1100,820,7,12.73
685,313.3,0,113,178.5,8,1001.9,688.7,28,36.8
689,266,114,0,228,0,932,670,28,45.85
693,310,0,0,192,0,970,850,180,37.33
697,154.8,183.4,0,193.3,9.1,1047.4,696.7,28,18.29
701,255,99,77,189,6,919,749,28,33.8
705,333,0,0,192,0,931.2,842.6,90,41.68
709,342,38,0,228,0,932,670,365,56.14
713,520,0,0,170,5.2,855,855,28,60.28
717,178,129.8,118.6,179.9,3.6,1007.3,746.8,56,48.59
721,158.4,0,194.9,219.7,11,897.7,712.9,28,8.54
725,160,128,122,182,6.4,824,879,28,39.4
729,178,129.8,118.6,179.9,3.6,1007.3,746.8,3,20.73
733,387,20,94,157,14.3,938,845,7,36.84
737,469,117.2,0,137.8,32.2,852.1,840.5,28,66.9
741,250,0,95.7,187.4,5.5,956.9,861.2,28,29.22
745,277,0,0,191,0,968,856,360,33.7
749,318,0,126,210,6,861,737,28,40.06
753,316.1,210.7,0,185.7,0,977,689.3,7,24.44
757,366,187,0,191,7,824,757,28,65.91
761,525,0,0,189,0,1125,613,180,61.92
765,162,190.1,148.1,178.8,18.8,838.1,741.4,28,33.76
769,139.6,209.4,0,192,0,1047,806.9,360,44.7
773,313,161,0,178,10,917,759,28,52.44
777,133,200,0,192,0,927.4,839.2,3,6.88
781,183.9,122.6,0,203.5,0,959.2,800,7,10.79
785,298.2,0,107,209.7,11.1,879.6,744.2,28,31.88
789,200,133,0,192,0,965.4,806.2,3,11.41
793,284,15,141,179,5.5,842,801,56,44.52
797,162,214,164,202,10,820,680,28,30.65
801,249.1,0,98.8,158.1,12.8,987.8,889,14,28.68
805,166.1,0,163.3,176.5,4.5,1058.6,780.1,100,33.54
809,231.8,0,121.6,174,6.7,1056.4,778.5,3,15.44
813,152.6,238.7,0,200,6.3,1001.8,683.9,28,26.86
817,387,20,94,157,13.9,938,845,3,25.51
821,286.3,200.9,0,144.7,11.2,1004.6,803.7,91,76.8
824,475,0,0,228,0,932,594,28,39.29